BEGIN IONS
TITLE=Spectrum 1 DRIFT_TIME=16.4769 17.4467 16.0274 16.2087 16.0797 16.3705 16.03 17.0811 17.2025 16.0434 15.960201 16.1145 16.7067 16.1903 16.2893 16.7082 15.9475 16.0321 16.1226 16.4959 16.2289 16.4127 16.2739 16.1585 16.2146 16.1141 16.5814 16.1948 16.1014 16.134 16.4917 16.2717 16.1755 16.1692 16.1938 17.2152 16.0423 16.2892 16.4526 16.8013 16.3299 16.7829 17.0092 16.7609 16.5431 16.2706 16.9396 16.3893 16.2974 16.3062 16.4783 16.6076 16.3598 16.854 16.2965 16.9028 16.603 17.5328 16.4376 16.2314 16.5137 17.7295 16.4148 17.1037 16.824 16.7329 16.5475 16.888 16.3666 16.3912 17.4195 17.4812 19.6602 16.9553 20.1653 17.1555 16.9967 16.4601 16.9774 17.0761 18.6781 17.0591 18.6428 17.1092 18.6431 16.893 18.7513 16.9746 16.6537 16.9435 16.8516 16.605 18.0113 16.9372 17.611 17.9699 17.6102 17.4285 17.719 18.0098 18.2251 16.5871 18.7297 17.5892 17.3242 17.5468 18.7211 17.505 17.5424 17.3062 17.3421 17.5895 17.2057 17.0253 17.6622 17.1973 18.0313 17.768 18.1011 17.4556 17.5759 17.495 17.3965 17.7023 17.5642 17.1188 16.8644 16.9996 17.6827 19.4067 17.4774 17.2488 18.2029 16.7114 17.6891 18.1269 17.1227 18.1902 17.3059 18.6502 16.6083 22.3863 17.0087 18.9225 16.9591 19.1513 22.2354 18.0719 19.1147 17.0522 18.0045 17.7565 17.4135 18.7225 18.892 20.6457 20.7792 20.7104 18.6339 22.7363 16.8653 20.8272 19.8252 21.9455 17.0932 20.1152 19.9894 19.0273 21.0345 20.9584 19.6242 20.7058 21.2339 21.7149 18.078 20.3799 17.2642 20.5319 16.6377 19.8354 19.7431 17.8054 18.0212 23.42 19.0331 23.3385 21.2919 20.0812 25.8109 18.2582 24.6615 25.253 20.906 20.5671 24.6996 20.9248 24.8993 25.8087 20.3598 20.9843 19.1374 23.8247 18.7583 24.0129 20.9467 23.8082 24.5326 28.6992 16.7715 24.2382 19.7775 26.0983 22.829 26.2788 22.9307 22.8159 26.3846 18.203 23.1011 22.9007 16.5207 30.9583 23.4923 23.5697 22.8263 23.6982 22.8525 16.6763 23.6206 16.3882 16.2747 23.9469 23.0728 23.8548 16.4751 16.5569 23.346 23.2251 23.6608 22.9808 22.8522 23.3026 25.046 23.4289 23.8282 16.9906 23.7513 38.2282 23.8708 38.4283 21.5714 17.1817 23.8256 24.4554 16.9875 30.2173 16.873 16.9734 28.0612 24.3961 25.1701 16.5828 16.4585 28.5639 21.8753 16.9072 17.0909 16.628 17.0659 16.5778 28.6021 36.0315 16.7045 31.2711 16.6236 16.6744 16.6231 28.5609 16.4458 35.076 16.8412 28.0444 16.431 16.3142 27.9775 17.4815 17.4371 16.6997 28.3287 16.7013 28.4424 16.3564 16.5632 16.5931 27.7338 16.4764 35.8529 17.7889 16.5036 17.6504 36.6932 17.6604 18.5754 18.4195 16.5103 26.8517 38.9984 16.7765 16.7811 16.9849 27.2251 17.3181 16.6504 16.5309 16.844 16.4386 16.8195 39.1124 37.7718 17.3838 28.0551 16.6632 18.8839 36.7685 18.957 16.5623 18.0701 16.5794 40.9723 17.5413 16.8919 16.864 18.5318 18.7995 36.5775 19.0927 19.021 18.7797 16.8674 32.2329 27.9129 16.6852 32.5261 17.516 42.1697 18.0678 42.1208 40.2075 40.0349 20.6842 17.4502 20.5754 20.6145 43.8613 33.9048 24.92 34.3836 16.8342 19.1055 18.834 40.6568 32.8083 18.3914 21.7834 32.7755 32.6337 17.708 17.6104 17.7281 17.4046 33.0502 17.3115 17.3934 17.5679 33.0099 19.807 18.157 19.2257 18.1029 33.6381 22.2805 32.2969 22.3512 30.6749 18.5794 17.6742 32.3531 17.9801 18.0076 32.633 20.4314 20.1086 32.7708 26.8712 20.385 49.3768 32.7338 19.9723 32.3335 34.6377 32.4185 19.5824 19.5732 32.3913 17.7844 33.8344 31.730698 20.8792 22.2944 33.3091 21.7806 21.4781 18.6477 18.9968 32.3427 18.0838 32.5694 19.7533 32.4178 32.3152 32.3605 41.4441 22.1748 22.3682 22.1258 20.8966 32.9754 33.4147 19.9915 32.4289 19.3728 21.7736 32.33 18.8527 32.1544 58.5526 32.2735 32.2881 22.9682 33.8336 32.532 20.2387 20.7053 20.4474 32.5658 33.7607 32.026 32.6296 29.1271 23.6045 32.9914 23.8367 23.8356 53.3088 23.721 32.815 38.1809 23.7148 33.9776 24.8533 22.9834 17.3769 51.9787 23.7881 23.8586 52.5581 23.9427 20.6552 22.9369 23.3781 24.01 24.76 24.1176 54.27 25.0992 25.3628 17.4707 30.0989 58.3001 29.6271 56.0896 25.4274 49.9108 25.3341 25.1712 26.0629 25.5274 18.2256 25.2034 39.7976 17.8473 17.296 17.4575 26.0217 17.2317 24.7316 39.2134 31.0261 17.6261 17.4983 26.6638 26.1921 26.7639 26.1112 25.915 25.9957 40.1579 24.9561 61.0705 40.5682 27.2282 38.5921 27.6786 27.5895 27.1181 37.3684 39.8954 27.1109 39.8742 55.1016 39.665 26.3915 62.8571 39.7512 57.9189 40.3598 43.3253 27.3857 38.2463 43.0454 34.6794 28.5141 27.33 42.7578 39.7588 27.0884 27.3096 42.5394 27.0406 42.3444 37.1417 28.3081 28.6926 28.0678 42.7754 37.4447 43.1563 30.5451 38.3004 29.9817 65.1275 61.757 42.7115 27.092 27.4635 61.7227 27.7082 43.0292 32.4243 28.573 43.3503 28.3958 36.8225 28.1108 61.9294 43.0645 38.6091 30.2286 64.7486 42.7785 28.7788 42.8121 64.5349 35.15 65.0722 66.2863 42.7554 29.7192 29.9059 42.8141 30.2796 29.6864 42.7621 43.077 44.4518 32.2498 32.4319 44.126 30.7739 30.4538 30.4904 30.2352 43.1937 30.8072 42.6137 43.4678 43.0378 44.6201 30.7733 43.9015 30.714 30.2357 44.1533 44.6144 32.9129 66.3697 65.7549 43.6359 43.6132 42.8025 32.3154 32.1575 41.2644 70.2244 71.176 33.6765 71.5187 33.4393 33.0554 68.3077 72.2961 74.1638 71.8336 73.048 85.1459 69.9541 73.3514 73.9985 83.0627 76.2342 87.8519 89.6172 79.2696 52.7598 52.2863 52.5098 54.0011 52.8973 54.3023 44.1536 43.5529 43.952 91.9368 46.8245 48.0956 105.3227 95.053 103.0086 109.0904 95.6928 119.7439 120.0151 120.5638 
PEPMASS=624.318
CHARGE=2+
56.0512 177
56.9673 220
69.0718 200
70.0679 2915
71.0711 167
72.083 194
74.0086 267
74.9346 216
81.9653 201
83.0636 1022
84.0477 336
84.0837 2430
84.9623 6408
86.0994 1743
88.026 199
88.9551 219
90.0038 501
93.048 620
95.0637 428
98.99 4720
102.0586 252
102.9748 273
103.0582 209
110.0745 9680
111.0782 807
112.0895 248
114.9645 161
116.0216 215
116.0753 201
116.9779 185
117.0024 246
120.0851 3947
121.0882 382
129.1055 776
130.091 1740
130.8926 240
131.9898 238
132.9744 163
133.0476 380
134.9677 2510
136.0849 856
136.9649 734
140.9229 2056
141.9967 222
144.9969 4666
147.1168 578
148.9057 176
148.9458 173
150.9416 2126
152.9389 736
152.9789 221
155.1251 152
156.0823 719
156.8965 472
158.0974 467
158.9335 2661
159.0246 2571
160.9039 327
160.9692 258
161.0374 150
165.1072 253
166.8753 143
168.9532 293
170.9336 2307
171.0239 277
171.9793 219
173.0586 149
174.9077 582
174.9981 262
175.125 1116
176.9004 603
178.8984 260
184.84 347
185.9466 226
186.8368 327
186.9285 4179
188.9196 218
190.0658 207
191.8871 193
192.8715 146
194.8679 3222
195.0024 1429
196.8642 3236
196.9975 424
198.8608 1126
198.9468 343
200.8568 191
201.1148 237
201.9182 754
201.9905 156
202.9029 1270
203.9113 166
204.8937 17374
205.0324 251
205.9004 617
206.8934 6605
207.0043 181
207.0971 182
207.8959 217
208.8905 966
210.8876 497
210.9729 161
212.8796 854
214.9175 38141
215.066 633
215.9323 2467
216.873 309
216.9256 1925
217.1413 2549
217.9232 307
218.143 420
218.9195 4204
219.9244 255
220.8694 797
220.9209 491
222.8611 319
222.9083 3936
223.9131 156
224.9061 1261
225.1064 661
226.1183 151
226.9071 1154
228.9003 412
228.9521 2847
229.1117 145
229.9018 243
230.8984 4829
231.9001 356
232.9359 7548
233.1743 489
233.9426 352
234.895 1383
235.1273 1028
235.8988 183
236.0746 728
236.1324 174
236.8922 659
236.9317 707
238.89 359
240.9198 246
242.8789 660
244.8698 263
244.9242 2279
245.136 1982
245.9253 258
246.1358 1668
246.8703 259
246.9598 934
247.1387 225
248.9117 1021
249.998 337
250.949 213
252.9108 267
253.1007 1341
254.1013 214
254.9007 1331
256.8988 1506
258.8964 611
258.9521 500
260.2057 927
260.8942 255
261.1679 432
262.1363 491
262.8866 114
262.9371 266
264.9308 1954
266.929 632
271.9592 276
272.9134 248
274.9022 434
274.9595 1434
276.9061 173
278.1327 335
280.1232 663
280.9019 270
281.0989 478
282.8917 216
282.9342 199
283.8875 254
284.9239 554
286.8097 218
286.9425 393
290.9382 149
296.1456 756
296.8335 1206
297.1404 194
298.8296 191
300.9839 168
304.7748 173
304.8738 166
306.1294 2515
306.7708 276
306.8645 266
307.02 1526
307.1298 466
308.0206 222
308.1158 413
308.761 130
308.8598 125
309.0163 275
310.8632 124
314.7992 1322
314.8488 307
316.7964 1425
316.8935 242
318.7937 684
320.7914 170
321.1654 344
321.8466 160
322.7851 221
322.9913 706
324.1403 4286
324.8261 14293
325.1406 739
325.8307 602
326.8247 9347
327.0568 170
327.1816 126
327.8295 349
328.8204 576
329.8528 251
330.1904 274
330.8219 159
332.8125 593
334.8576 4458
335.8627 226
336.854 1658
338.664 159
338.8524 477
339.8377 216
340.8368 145
340.8548 201
342.8406 3766
343.8438 118
343.8539 203
344.6325 153
344.8841 9258
344.9707 675
345.8906 633
346.8328 231
346.8877 483
348.88 895
350.8398 415
352.8694 887
354.8699 322
355.6462 150
356.8624 340
358.2241 1520
358.9073 217
359.2278 341
360.8577 596
362.1508 157
362.8953 1032
363.9 136
364.1583 355
364.192 331
364.6521 254
365.1536 159
366.8089 135
366.8849 160
368.8569 116
372.3015 190
374.8023 173
374.8377 174
374.8838 116
375.1507 271
375.6238 592
375.8014 233
376.1253 304
376.7994 254
376.828 179
377.1612 295
377.7898 204
378.1537 167
379.8186 208
380.8127 304
380.94 177
380.9451 557
381.8132 330
382.225 171
382.8108 223
382.9346 136
383.808 224
384.8392 239
384.8604 179
385.167 195
385.6587 205
385.8101 234
386.6835 232
386.7998 275
386.8622 139
387.8237 216
388.8221 202
389.8197 325
390.9728 391
391.8237 199
392.2052 110
392.6656 1514
392.814 199
393.1666 1088
393.2044 234
393.6636 448
394.1722 422
394.6768 234
396.3174 177
396.9169 210
397.1883 379
397.8204 302
398.4866 193
398.8094 299
398.9196 216
399.1114 217
399.8124 338
399.9144 326
400.8032 331
400.9144 395
401.8166 257
402.2279 169
403.2042 189
404.1261 168
404.6896 272
404.9195 205
405.1695 225
405.1753 232
405.6746 232
405.8228 256
406.1661 230
407.8684 381
408.2391 120
409.6124 201
410.5652 246
410.8143 193
413.6784 409
414.1768 434
414.2201 126
414.6797 676
415.1798 436
415.6741 193
416.4547 197
416.9244 461
418.8578 131
418.9034 197
418.9194 167
419.112 171
419.2532 247
420.1491 171
420.2403 2132
421.2025 841
422.2113 294
422.6828 1121
423.0845 174
423.1835 566
423.6854 200
425.1674 230
426.7015 285
426.801 168
428.6952 158
431.9072 193
432.6522 219
433.1495 175
434.1965 311
434.7304 872
435.647 341
436.1889 153
436.729 1200
436.9772 139
437.0985 173
437.602 388
438.0905 215
438.6171 519
438.725 784
439.1263 247
439.6146 175
440.1189 178
440.7288 280
441.1713 145
441.5947 171
441.6632 218
442.0875 197
442.7164 222
444.6949 479
444.762 2156
445.1986 260
445.7681 135
446.1006 327
446.607 290
446.7591 2076
447.6281 324
448.1256 236
448.7556 819
450.1768 314
450.6807 273
450.7529 233
450.8368 164
451.1764 175
451.2753 162
452.742 645
454.1629 140
454.7901 2163
454.8795 265
456.7876 1605
457.6569 252
458.1568 145
458.7832 587
460.1081 161
460.7472 211
460.8879 151
462.1812 155
462.6835 199
462.774 589
463.1837 186
463.6786 158
464.0939 157
464.5969 166
464.818 5353
465.0838 190
465.8205 532
466.6064 210
466.8164 2561
467.8244 246
468.8105 879
470.1553 141
471.1873 190
471.6889 326
472.1936 490
472.665 180
472.8371 701
473.8298 156
474.5948 217
474.844 11502
475.5785 175
475.6834 130
475.8513 1324
476.5873 152
476.8487 899
477.3016 361
477.8389 147
478.8404 1387
480.1997 343
480.8012 662
480.8703 398
481.1503 551
481.6507 381
482.1598 155
482.8414 585
484.8232 221
486.8264 131
488.8592 163
490.8202 834
491.7008 154
492.8626 228
493.696 182
494.1831 124
495.2988 215
496.6969 114
496.8407 143
496.9692 214
497.1905 148
498.823 142
502.212 235
503.1714 138
504.8596 190
505.3003 863
505.6983 388
506.1967 388
506.3018 310
506.6949 205
508.1034 134
508.6672 199
510.6753 258
511.1741 209
514.7012 314
515.1927 218
518.2595 249
519.6839 163
520.6933 112
521.2075 113
522.2889 306
522.3187 257
522.7851 129
523.2949 163
523.6978 130
524.1666 117
524.1851 178
527.2045 211
527.7108 282
528.2048 227
528.5377 419
528.6956 166
528.8043 152
528.873 271
529.1567 256
529.4932 246
529.6945 207
529.8288 212
530.1752 133
530.7828 173
531.2934 130
533.8629 219
534.1961 149
535.7142 411
536.22 305
536.7186 421
537.214 275
537.7094 139
538.6856 511
538.825 488
539.1804 247
540.2746 404
540.8215 319
544.7202 408
544.7696 247
545.2225 238
545.7149 160
546.2002 194
546.7901 327
548.8546 1665
549.7263 144
549.8524 258
550.263 315
550.8553 877
551.1896 133
551.2915 136
551.8537 166
552.2461 155
552.8505 326
554.6688 615
554.7104 111
554.8097 278
556.6647 829
556.7612 655
557.7304 184
558.2211 124
558.6596 610
558.8798 655
559.6978 250
560.1906 225
560.659 280
560.6942 111
562.6458 109
562.7781 130
563.2173 271
563.7128 245
564.215 165
564.6899 911
564.8244 377
566.6881 1226
566.7361 200
566.8358 203
567.2369 173
567.3107 1314
568.2773 1144
568.6855 738
568.7026 925
569.1991 421
569.2769 442
569.7034 161
570.6849 254
571.802 163
572.2202 381
572.675 474
572.7182 341
572.8126 150
573.2212 151
574.3188 215
574.687 700
574.8479 272
575.2005 247
575.3184 114
576.7101 630
576.7107 113
578.6614 286
580.3273 489
580.8069 137
581.3229 314
582.3179 159
582.7145 326
584.22 149
584.7245 187
584.7468 1069
585.2216 203
585.7271 157
586.7499 749
588.7462 256
590.7026 256
590.7495 269
591.2459 124
592.7047 196
593.2321 322
593.7255 344
594.229 502
594.7278 381
594.7784 1349
595.2379 134
595.7859 149
596.7775 728
598.7772 383
600.7365 372
602.235 480
602.716 195
602.7379 286
603.2319 146
604.8115 1301
605.82 140
606.2498 113
606.3001 217
607.2949 133
608.8009 163
610.7739 247
612.7722 137
615.2458 138
615.7392 182
620.773 170
622.3127 479
623.3333 1024
624.2552 236
624.3419 601
624.7588 241
625.2543 129
625.3419 136
637.3344 388
638.3351 156
648.293 427
649.2947 124
653.3549 221
663.351 148
665.3303 647
666.3339 318
680.4044 572
681.3568 296
681.3588 753
682.3586 307
687.417 112
694.6359 107
696.6378 128
706.681 160
714.7121 305
716.7089 204
724.7438 154
732.285 186
738.2853 130
747.2953 162
750.4244 132
777.7832 258
792.7993 289
827.4813 373
828.4369 291
828.44 387
828.4836 201
829.4315 205
924.5272 781
925.5335 537
926.5281 233
END IONS
BEGIN IONS
TITLE=Spectrum 2 DRIFT_TIME= 16.1031 16.3101 16.7533 16.2235 16.1629 16.4823 16.1845 16.11 16.8334 16.5884 16.4417 16.2271 16.3459 16.3566 16.9143 16.6074 17.1879 16.3421 16.7866 16.665 16.5691 17.0254 16.648 18.7892 16.965 18.8035 16.915 17.882 16.879 17.9935 17.8628 16.9732 18.0811 17.4535 16.965 23.457 18.0397 43.6489 134.5089 22.9647 186.1225 37.8142 16.7309 18.052 43.5694 42.8099 59.0972 48.8006 91.6055 17.0254 17.537 42.5047 72.5074 42.6421 31.859299 17.7702 43.0656 17.3953 20.5024 114.651 16.4337 32.2725 20.185 32.3561 32.4227 52.3236 16.981 54.0221 38.494 43.7172 22.7725 32.234 16.3421 18.7892 29.5079 90.1795 22.5531 17.1189 20.856 16.11 16.915 18.0811 66.7052 33.0631 43.3068 53.9858 19.052 42.9719 52.8702 137.3556 45.5506 19.1895 189.3757 59.6014 42.9281 16.879 17.2043 16.3101 52.1461 53.7082 18.7407 18.8035 17.0791 55.5738 53.3347 61.4749 33.4173 32.4163 62.9776 17.1879 16.3459 38.3465 63.0912 18.3439 17.848 52.583 16.5691 33.0103 42.3859 16.9143 23.8079 57.8197 18.5687 20.7173 16.1845 39.4902 31.253403 33.8435 52.9334 16.3566 16.9732 16.665 18.4091 23.3062 28.4121 42.0169 39.5449 50.1733 16.1629 16.9903 51.4626 62.5941 28.0836 93.5753 16.648 62.5541 31.845299 63.033295 42.6988 16.5884 17.8628 43.1564 38.4037 52.6609 54.9426 29.6371 20.2761 63.907303 57.3434 37.883 31.301498 44.749 32.681 39.917 30.157 33.9187 62.4703 23.718 23.1322 31.970299 39.1868 53.9255 63.0913 37.6462 28.6145 43.9488 25.9145 
PEPMASS=844.4265
CHARGE=2+
70.0675 1593
84.0481 226
84.9617 753
86.0988 2977
87.1042 148
98.99 994
115.0539 178
120.0847 271
134.9686 713
143.1241 134
144.9963 1418
150.9403 753
152.9398 202
155.1248 163
158.9335 186
159.0239 894
170.9363 204
175.1281 313
183.1552 978
184.1587 158
186.1311 193
186.9285 492
187.0794 143
194.8652 310
195.0014 682
196.8641 214
196.9962 268
204.8948 2700
205.032 230
206.8935 962
208.8909 134
209.1009 159
211.1505 264
214.9223 8522
195.0014 682
344.8866 670
222.9055 644
584.7494 622
1122.5613 620
334.8578 618
1332.7032 589
657.837 570
230.8961 568
228.1412 566
594.7751 556
586.7407 531
560.2948 515
489.2616 498
861.4513 494
186.9285 492
218.9177 469
576.7217 456
733.3859 449
454.2385 440
357.1911 439
228.9501 434
574.7156 431
215.9282 419
307.0193 419
1008.5222 409
242.8826 399
456.7858 386
266.9258 377
466.8079 367
446.7567 364
696.6456 359
244.9246 358
714.7022 348
658.3388 339
604.8067 330
342.8397 327
444.7571 324
175.1281 313
194.8652 310
329.1905 302
843.4254 297
336.8522 295
234.8981 294
254.8991 292
120.0847 271
196.9962 268
211.1505 264
632.3328 263
775.666 259
596.7709 258
724.736 256
246.1633 255
566.6911 249
704.6732 249
1123.5729 246
472.2685 244
243.1421 242
1333.6873 239
561.3027 233
578.7215 232
205.032 230
216.9246 228
84.0481 226
694.6583 226
716.7106 225
565.7394 217
196.8641 214
226.9094 214
567.3269 214
706.6894 212
816.5725 210
375.228 209
775.9949 209
600.3336 206
170.9363 204
152.9398 202
657.3419 200
814.5782 200
280.9036 199
224.9053 196
686.6275 194
186.1311 193
775.3289 193
564.6862 189
158.9335 186
316.7961 184
583.3086 183
566.7364 181
256.8957 179
115.0539 178
425.2475 178
358.7637 171
508.8665 171
688.6244 171
155.1248 163
209.1009 159
184.1587 158
296.8406 158
352.8714 158
326.1921 157
568.6839 156
436.2344 154
444.2651 153
87.1042 148
220.866 145
698.6427 145
824.6005 145
297.2048 144
862.4547 144
187.0794 143
834.6552 139
468.8113 138
826.6095 136
455.2365 135
143.1241 134
208.8909 134
588.74 134
667.8531 132
684.6159 132
734.7521 132
339.1808 131
284.931 130
854.7014 130
539.3295 129
658.8423 129
374.7824 128
730.8671 124
458.7912 123
426.2518 122
340.1911 120
472.7987 118
808.547 118
649.2241 117
328.8174 116
448.7495 116
548.8567 115
708.6651 115
818.5851 115
546.8019 114
561.2806 113
731.3604 109
740.5582 106
END IONS
BEGIN IONS
TITLE=Spectrum 3 DRIFT_TIME= 16.1126 15.997799 16.1275 16.0872 16.7005 16.2582 16.0364 16.2077 16.4966 16.7681 16.1697 16.1574 16.9783 16.2226 16.4035 16.8463 16.8542 16.2016 17.1344 16.9965 16.5813 16.4717 16.3047 16.2733 16.309 16.8232 17.0755 16.2343 16.9956 16.5729 16.4076 16.2344 17.6733 16.1561 16.4895 16.523 17.1156 16.756 16.7933 16.213 16.4351 17.5117 16.6267 16.6599 19.7255 16.9221 19.9771 17.1399 20.0974 16.8338 16.7806 18.6453 17.0396 18.7613 16.9958 18.8084 16.8785 16.5719 16.7307 17.9796 16.8264 17.828 18.1483 17.9534 17.7601 18.0892 17.9175 18.3168 16.4216 18.5182 16.382 17.5486 17.2741 17.3682 17.493 17.1268 17.4965 17.4037 17.3771 17.5841 17.0972 17.0053 17.6537 17.9623 18.8569 18.7868 18.1268 18.8691 17.4624 17.4417 17.6186 17.1604 17.6789 16.8851 16.7079 18.3749 17.6678 17.4764 19.563 17.1642 17.0903 18.0352 17.1417 18.9477 17.0226 16.546 22.1472 17.0725 21.9579 18.1772 22.1509 16.9933 17.9686 20.9455 21.0804 17.3464 20.604 20.8438 20.0499 20.8325 16.644 22.0769 17.414 22.1334 20.0036 20.0582 21.7528 20.1223 20.2855 19.8565 18.6826 20.9149 21.5863 19.6426 19.7557 21.0893 19.5622 19.5477 18.0896 18.2566 20.1775 20.2008 20.0247 18.079 22.4893 18.4179 21.3424 18.8947 16.4461 20.0747 16.9293 26.1027 25.1003 25.6493 27.2473 25.2613 25.7738 20.6222 21.1001 25.0019 25.4338 20.1628 25.7362 23.9127 18.8529 24.8605 23.8089 21.185 24.0522 28.6905 25.1902 19.9827 29.922 25.769 22.8493 22.8095 22.8032 23.1693 26.9613 25.4928 23.5696 24.2069 22.9652 23.246 23.0144 16.2809 23.337 16.6341 23.7873 23.1957 23.3261 23.0493 23.4435 23.5908 23.0398 23.3519 24.002 23.5181 23.3504 22.3205 31.1997 23.9536 21.0173 33.5666 23.9381 29.6968 22.6604 29.4265 29.2722 29.2497 28.8406 21.7801 16.9928 16.8508 28.6805 35.5911 28.7026 29.0745 16.7326 29.6709 16.6804 16.7751 16.893 16.5368 30.0328 27.2807 16.6106 28.6112 16.8211 29.1745 27.7679 38.6345 28.4976 38.534 16.9662 39.663 17.3915 16.7553 31.113098 41.1338 41.4168 25.0984 32.6085 16.6763 16.7977 16.5424 16.8023 39.4666 16.6345 34.1292 16.8427 33.9941 16.7461 32.4063 41.7501 34.2686 31.7589 16.9775 16.8273 28.9128 40.1515 16.7845 40.4217 33.0261 39.0519 16.6976 32.9292 16.6292 17.8641 33.5957 16.7709 16.7037 34.0048 32.5038 16.8061 32.4506 16.8487 16.9576 17.2651 16.9033 32.5598 16.9501 16.717 16.8496 32.5283 16.8725 17.1242 38.7188 33.3207 16.6134 17.017 32.5983 17.0719 16.8167 31.777298 17.0492 18.0589 32.5249 16.9146 18.3708 43.7292 18.1554 32.465 17.0201 17.9644 44.7776 16.9266 32.2603 16.7756 32.5506 44.0984 32.8937 17.0732 44.4887 17.0374 32.4582 35.1706 32.4402 16.9794 32.4763 32.7658 16.9813 32.6483 16.9778 17.0819 17.0128 30.6938 33.1121 45.888 33.0278 33.1317 32.9367 17.3969 32.4697 17.3212 17.2398 32.9456 32.2084 32.5542 30.2905 32.6843 19.9509 32.9143 32.7358 18.6221 33.1521 38.9447 33.0335 33.4272 29.2328 32.6654 33.357 29.3718 33.6708 38.1318 21.9053 37.7674 34.8795 54.6359 17.0952 34.8742 16.9984 17.264 23.6958 34.8007 17.0184 19.6925 37.2821 35.0864 51.6364 24.7618 17.1846 17.1481 17.2491 17.1725 17.0382 17.3703 17.4724 59.5911 60.3104 18.2095 39.8111 17.9538 17.3121 17.3151 17.1973 17.0183 17.0651 40.4945 42.5784 57.2243 17.5849 34.5111 54.6487 53.8908 33.7665 39.7111 25.6654 30.3017 17.4295 40.0941 17.7859 18.268 17.6275 17.3872 17.2603 44.1316 43.8798 17.3885 17.6409 17.4257 42.8093 39.7619 17.7683 17.5167 17.3701 17.5627 40.2805 62.3169 24.9546 62.4417 60.8634 43.5931 37.9465 18.331 59.6313 18.2965 43.4805 59.3755 26.5891 43.07 40.4162 17.9544 17.8505 43.8011 43.0836 37.879 43.1082 37.692 18.3081 17.9298 17.9791 43.3498 27.0782 27.0751 60.781 43.3827 19.0382 43.1322 36.5287 42.9527 38.1053 17.5142 29.8945 29.6814 43.1685 43.2462 42.879 42.709 43.6398 35.7901 43.7565 43.0833 42.8157 43.0729 27.801 43.4254 27.8023 27.5378 42.9999 41.7202 43.1702 31.224098 63.829895 30.8018 43.8356 59.5868 64.6284 43.4581 27.8631 43.4623 28.403 43.9206 43.3054 43.3007 43.1176 42.0933 44.1451 19.1918 55.0711 21.1283 20.4249 63.076904 43.8779 20.6274 21.1496 33.7999 43.2178 32.0222 30.9936 44.6921 31.429703 22.6341 23.3672 22.8105 23.1427 22.9416 23.0857 22.9817 40.4557 32.0556 22.6677 22.2937 31.8951 32.261 70.4579 22.3925 22.6882 70.4808 23.317 23.572 23.4669 22.9011 23.2785 22.0437 23.8042 22.9391 22.6661 23.3717 23.3165 35.2959 34.5449 34.3219 22.9762 22.7269 22.2573 71.2995 23.5489 24.1424 72.1817 36.1365 24.747 35.3448 76.4401 35.512 35.3555 78.9218 35.8591 37.3156 36.4003 36.8748 36.6713 37.0175 36.4413 70.2695 35.9287 36.2193 36.5797 36.3217 36.9626 44.1283 73.8067 44.7379 70.9128 35.6297 35.0169 41.635 41.4864 72.1945 41.7598 36.901 53.912 45.3314 52.9397 44.5587 42.2347 36.1475 42.2994 37.0728 42.1936 44.1985 42.1426 76.1742 42.1397 37.6497 76.5948 54.1775 46.5003 75.6843 53.0185 52.2483 52.8806 52.1662 49.6602 52.2966 49.0843 52.6811 52.1779 46.802 52.951 52.7174 53.5117 77.9349 53.4133 53.2582 52.5601 53.5554 53.99 53.629 54.3994 54.2769 40.6888 40.0147 53.062 54.4367 55.1379 41.7934 41.3036 42.0705 55.6438 92.711 91.0935 101.9774 100.9296 61.3056 62.0404 65.1697 118.5968 117.0318 140.6521 140.6885 137.1815 153.584 150.7251 152.7304 150.2334 182.7334 176.7598 185.716 177.6906 184.2498 
PEPMASS=673.3745
CHARGE=2+
70.0671 363
72.084 155
83.0642 785
84.0823 265
84.9634 4062
86.1002 844
93.0491 453
95.0636 205
98.9904 2881
102.9754 174
110.0747 9577
111.0783 749
130.8971 133
131.9926 247
132.0882 218
134.9689 2071
136.9658 724
138.0679 223
140.9239 1282
141.9979 154
144.9979 5356
145.9998 197
150.9422 2571
151.9394 167
152.9396 884
152.9829 248
156.8953 232
158.0962 260
158.9346 1597
159.0258 2356
159.0975 1865
160.1027 242
160.9053 173
160.9706 291
163.0109 229
168.9537 297
170.9353 1544
171.0273 310
174.9091 208
174.9981 359
175.126 716
176.8993 323
178.14 5096
179.1445 658
184.8384 400
185.9419 159
186.8386 643
186.9302 2696
188.8339 262
191.8915 146
192.8751 126
194.8691 1705
195.004 1905
196.8653 1187
197.0016 666
198.8634 240
198.9448 355
201.9184 489
202.9042 568
204.8956 12200
205.0325 644
205.9014 351
206.1372 519
206.8949 4719
207.0021 177
207.8988 158
208.8916 926
210.8922 473
210.9781 300
212.8811 494
212.973 165
214.9185 36028
215.0683 614
215.1239 214
215.9319 2480
216.1101 303
216.927 1784
217.0327 248
217.9243 270
218.919 3482
219.9261 205
220.8708 823
220.9221 329
222.91 2819
223.1617 13429
224.1669 2254
224.9067 849
225.1725 213
226.9073 722
228.9021 364
228.9535 2706
229.9058 191
229.9546 138
230.898 3189
231.9029 270
232.1498 402
232.9373 7073
233.9411 298
234.134 143
234.8972 1337
236.894 570
236.9338 526
238.8857 313
240.145 120
240.8867 192
242.8837 839
244.8747 1429
244.9258 1649
246.8701 2623
246.963 904
248.8686 1051
248.9122 645
250.947 249
251.1589 3353
252.1638 601
252.9083 329
254.9035 1531
256.9009 977
258.1527 361
258.8951 216
260.8987 279
262.8846 573
262.9415 144
264.8809 944
264.931 3157
265.9381 134
266.8759 391
266.9299 1075
268.9296 271
269.1376 129
271.9602 165
272.915 290
274.9013 234
274.9605 3537
275.9642 268
276.1658 430
276.9665 133
278.954 247
280.9058 708
282.9019 301
282.9448 311
284.9283 381
286.8066 216
286.9411 475
287.1465 351
290.9362 174
290.9616 142
296.8385 1135
297.1479 304
300.9882 209
302.9172 239
304.1898 1601
304.7725 215
304.9084 545
305.1915 288
306.7706 461
306.9047 910
307.0234 1144
308.029 140
308.7691 238
308.9039 390
309.0153 160
312.7641 214
314.8006 3366
314.8526 236
314.9393 116
316.7995 2370
316.9008 169
318.7959 346
322.2004 857
322.7818 159
322.9929 263
323.2005 179
324.7751 216
324.8309 2615
325.8358 126
326.8296 1650
328.8243 559
330.185 107
330.7658 137
330.819 169
332.8121 1608
334.8594 4146
335.8657 189
336.8579 1624
338.84 208
338.8565 506
339.8395 204
340.8521 155
342.8419 517
344.8877 5292
344.9746 452
345.8943 399
346.8363 399
346.8874 343
348.8821 576
350.8301 380
352.8719 673
354.8693 330
356.8698 474
358.1877 207
358.9136 143
360.8606 628
362.1956 334
362.9013 554
364.8107 228
364.8578 172
366.8043 431
368.8002 271
372.7953 240
374.8361 998
374.8921 162
375.6518 721
376.1521 359
376.8349 891
379.2247 544
380.9461 624
382.9421 218
385.8265 195
386.8077 187
386.8224 202
387.806 175
388.8321 189
389.8246 207
390.8032 174
390.9732 289
392.8194 183
392.8412 212
393.8122 255
394.8425 202
396.9163 205
397.1879 176
398.9535 131
400.2173 133
403.7464 177
405.2393 286
406.1529 243
406.8253 244
409.1261 143
411.2075 967
412.2108 215
416.7736 161
416.9268 167
418.7961 204
418.9062 180
420.7728 190
422.2682 181
423.2531 289
423.2805 214
424.7049 144
425.7936 213
426.7045 272
426.7927 249
426.9553 320
427.2124 118
428.7001 138
428.9513 115
430.7988 210
431.8326 204
432.9046 130
433.1067 108
433.8185 239
434.2008 270
434.7342 529
435.0927 148
435.7743 348
436.7314 751
437.2768 177
438.6216 252
438.7268 267
440.7823 246
441.8001 246
442.7185 175
444.7623 1179
445.8798 209
446.7614 1293
446.7768 293
447.2929 239
447.6296 156
447.7724 379
448.7574 571
448.7771 422
449.2795 262
449.77 478
450.7576 166
450.7751 461
451.9088 213
452.1768 116
452.7412 363
452.7893 208
453.7896 337
454.7916 3328
454.8283 502
455.3189 233
455.7939 242
455.8282 734
456.6182 728
456.7889 2513
456.8198 580
457.1142 368
457.262 250
457.6169 391
457.7931 205
457.8142 421
458.1085 176
458.2607 111
458.7829 307
458.7874 878
459.7762 275
460.7883 310
462.2523 601
462.7739 508
462.8497 250
463.2536 174
463.8556 270
464.8213 6515
464.9107 430
465.8278 588
466.3293 180
466.8177 2374
467.8194 253
467.8809 201
468.8175 814
468.8637 366
469.3669 198
469.8743 246
470.7625 308
470.8476 1659
471.2709 117
471.8494 292
472.8403 1421
473.8329 162
473.8493 241
474.849 4973
474.8574 253
475.8459 168
475.8595 405
476.848 271
478.8444 490
480.7988 180
480.8785 588
481.1586 242
481.8794 137
482.8433 525
484.5823 251
484.8313 200
486.7375 127
486.8248 160
488.8582 329
490.8263 389
490.9001 477
492.8617 166
494.8217 116
496.8499 119
496.9798 249
500.129 111
506.8195 288
508.8639 1058
509.2776 176
509.82 257
509.8714 102
510.1464 244
510.4902 172
510.6751 131
510.8562 329
513.1636 196
513.5786 164
516.8522 117
518.8925 126
519.2931 133
520.1902 173
521.8198 263
522.1406 185
522.4772 193
522.8131 203
523.1518 182
523.4962 152
523.803 163
526.2947 592
527.305 162
528.5486 152
528.8011 108
528.8684 170
529.1628 718
529.4933 610
529.8315 351
530.1683 169
530.4959 208
530.8009 123
532.9449 123
533.2608 375
534.8204 197
536.7096 186
537.2982 184
538.2976 107
538.7018 147
538.8313 336
539.1713 107
539.7884 132
539.8113 153
540.8335 280
541.1916 189
541.5099 176
541.816 283
542.147 350
542.4769 182
544.6425 136
546.6393 299
547.1368 244
547.4719 230
548.4659 130
548.6407 183
548.8567 326
549.1692 216
549.5005 188
549.8356 189
550.1788 172
550.8636 130
551.3063 122
552.1653 176
552.3051 313
553.3146 182
554.6546 235
554.8085 122
555.174 272
555.3399 133
555.5211 162
556.6609 327
557.2491 213
557.6619 119
558.6509 212
558.8832 281
561.8286 158
562.1557 197
562.6559 216
564.6762 472
564.8304 481
566.685 681
566.828 281
567.825 264
568.1669 187
568.4933 197
568.6909 509
568.7067 552
569.2081 368
570.3426 171
570.6711 193
571.5232 130
572.6773 255
572.7967 116
574.7248 1635
574.8623 224
575.1561 139
575.2058 288
575.7083 167
576.7184 1719
577.7131 195
578.7196 879
579.7274 118
580.712 393
580.803 143
582.6762 323
584.7537 4741
585.7583 390
586.7528 3789
587.6824 1032
587.7506 329
588.1826 619
588.6858 186
588.7499 1278
589.7594 147
590.728 722
591.1953 203
591.289 104
591.7086 121
592.7188 491
593.2888 385
593.3 271
594.7824 2787
595.668 344
595.7934 336
596.1666 193
596.7803 1174
597.7794 131
598.7794 440
600.7426 343
602.7519 267
604.8151 1112
604.8694 114
605.1491 159
605.2231 127
605.5534 116
608.3395 365
608.8053 177
609.2019 128
609.5446 119
610.2517 125
610.7585 173
612.2065 153
612.7048 181
612.7944 115
613.2017 163
615.902 108
617.5919 147
617.9316 215
618.2723 133
619.9316 383
620.262 351
620.5997 190
620.7968 148
621.2189 315
621.2454 226
621.5715 215
621.7181 294
622.2221 122
622.3128 896
622.9199 193
623.2619 167
623.3148 296
623.6015 460
623.938 341
624.2714 217
624.5989 123
625.5752 133
627.2499 125
627.9299 114
628.258 173
628.9279 365
629.2683 308
629.5923 188
629.7621 317
630.2611 343
630.7527 161
631.2398 181
631.5694 156
631.9036 164
632.3658 527
632.9213 133
633.2533 119
633.3596 196
638.7657 1004
638.9475 127
639.2673 814
639.3806 622
639.7671 390
640.2771 158
640.3842 277
640.7527 109
643.2906 139
644.7653 119
646.2984 754
646.7982 543
647.3002 252
647.8107 108
648.2894 175
651.7768 127
652.2822 112
653.7749 188
654.2767 191
654.7844 150
656.6384 446
658.3386 298
658.6317 371
659.3499 126
661.2753 174
661.7687 107
664.3836 507
664.8833 537
665.3303 183
665.3789 321
665.7734 125
666.5637 177
666.6657 274
668.5575 122
668.661 171
673.3895 3666
673.7684 149
673.8917 3113
674.2774 175
674.3984 1338
674.6532 179
674.8897 476
675.3675 1476
675.405 140
676.2838 122
676.3779 561
676.5738 201
676.6522 172
677.3805 137
682.5681 107
684.5919 210
686.5949 274
694.66 242
694.787 244
696.6471 370
696.7936 178
698.6504 208
700.632 142
700.7366 121
702.6163 228
704.6939 436
706.6854 594
707.4073 197
708.6789 397
710.6644 424
712.6487 367
714.7154 2098
715.7159 227
716.7139 1451
718.7124 557
720.6943 182
721.2952 210
721.8027 136
722.6825 151
724.7447 511
726.7459 208
729.8132 331
730.3137 266
730.8068 130
734.768 215
738.4645 499
739.4594 238
809.495 547
810.4949 279
816.588 171
826.6133 118
844.6903 128
923.5445 643
924.5506 404
1024.591 861
1025.6058 577
1026.6104 246
1095.6279 3683
1096.6359 2433
1097.6409 952
1098.6534 228
1208.7198 747
1208.7219 800
1209.7244 495
1209.7277 705
1210.7336 270
END IONS
BEGIN IONS
TITLE=Spectrum 4 DRIFT_TIME= 16.2257 17.2561 16.1345 16.2617 16.3305 16.9703 17.164 16.0161 16.1007 16.1145 16.7264 16.271 16.1138 16.4331 16.1842 16.1391 16.0554 16.2159 16.1293 16.1059 16.2465 16.2087 16.3231 16.2796 16.0588 16.1314 16.2842 16.3654 16.8029 16.2216 16.6964 16.1437 17.0519 16.6938 16.5322 16.2986 16.2364 16.9007 16.237 16.2632 17.0101 16.2929 16.8978 16.6717 16.3961 17.2893 16.3056 16.7164 16.3506 16.4285 16.4757 16.3392 17.048 16.7469 16.3443 16.9733 16.3711 16.6654 16.2649 16.4105 16.6831 17.6584 16.5791 17.8403 16.671 16.4948 16.351 16.7432 20.0529 19.9686 17.1064 16.6266 16.7267 18.6497 17.0955 18.6639 17.2155 16.5901 18.6851 16.8662 16.825 16.9684 17.0578 17.0828 16.5515 16.8275 16.772 17.9455 17.0439 17.8239 17.9782 18.2977 17.0889 17.0503 18.1042 16.6507 18.9392 17.5498 16.9954 17.5873 17.0197 17.3674 17.0189 17.1135 17.6539 19.1113 17.1273 17.6173 18.005 19.0026 17.9831 17.0208 17.5209 17.6664 16.9426 17.8239 18.2697 17.6496 17.2639 17.1075 18.0756 18.9212 19.1777 17.2944 18.8767 16.5107 17.9815 21.7763 17.0556 22.0137 18.2142 16.972 18.0431 20.6201 20.4354 18.6831 16.5518 19.7634 20.2091 20.2204 20.0831 20.1759 20.4654 20.3593 20.7837 19.6666 22.0828 18.0682 22.0476 23.6201 23.5134 20.1429 22.124 19.8502 18.0795 22.9785 23.2965 24.4232 19.1667 22.8215 24.4906 20.1373 16.886 24.4259 24.7413 25.324 20.7783 20.7421 20.6227 26.1234 24.9699 20.9661 26.3805 24.9383 25.6219 25.09 24.0831 18.7608 25.0839 23.927 20.8361 23.3667 23.8739 24.7191 19.9275 22.807 22.7734 22.902 27.9936 28.1811 23.0243 23.8355 22.9507 23.5237 31.244698 22.9286 26.4024 16.6979 23.2799 27.4454 31.2415 23.026 23.2798 23.3231 23.3024 22.8295 23.9218 33.8772 23.4213 23.139 31.942001 22.3629 31.822899 34.1778 24.1532 32.3742 29.6059 29.8131 33.1461 34.7711 34.1441 17.2439 17.2077 27.8673 37.7685 29.3291 35.3637 34.7285 35.1988 35.1399 18.884 36.29 36.4587 38.3539 27.8845 37.4105 26.8037 38.8366 39.5909 26.9669 38.3101 38.5636 17.5935 17.5381 25.28 24.8597 37.3021 16.9373 36.8671 41.2911 42.1504 36.0919 37.1738 24.53 30.2822 36.7717 37.1638 37.9946 39.6988 42.4317 25.7096 44.0026 41.5747 33.0199 41.8331 39.2104 40.4963 40.7361 32.6742 40.1115 32.2924 32.8134 42.3242 32.8773 33.5909 32.6402 32.4348 32.2124 40.1136 45.7431 32.3217 45.7431 46.6471 32.9549 47.1719 32.6402 31.542099 32.7436 32.8959 32.1264 44.8876 32.7389 32.7414 32.6048 32.622 32.4051 32.2161 32.1177 32.8474 49.0705 48.8003 33.1106 32.5584 31.9915 32.8969 32.1937 50.5764 32.4052 50.2499 47.3503 47.5778 33.2726 47.7541 31.693901 46.0888 29.4347 23.6683 24.1381 53.8059 49.7441 50.5747 25.8701 25.7285 51.1134 47.8302 50.8163 27.9258 51.7982 49.2972 53.4844 50.2161 48.85 35.1677 55.805 34.6562 39.7219 51.4009 25.7855 49.8788 34.804 39.9878 40.1208 27.151 27.2946 33.687 28.4949 28.1226 54.1864 40.2041 39.8564 40.2656 35.1328 54.814 35.3729 54.4546 44.3729 34.6217 39.8064 39.7723 62.4902 41.4602 42.4448 38.6816 28.8246 42.4546 37.8443 56.6977 33.1388 43.6401 39.8519 42.9151 36.2025 43.269 38.4478 55.9224 58.9783 43.1417 39.1394 42.6423 28.5087 28.4831 42.8741 43.139 43.2565 38.0567 43.5184 28.9001 42.9262 29.1295 43.2897 42.6375 43.0657 43.3857 43.2697 42.6281 43.2497 18.4061 42.7594 42.8537 58.4987 43.0109 66.0602 30.6413 42.9949 17.691 60.9112 58.7194 43.5706 43.3373 43.887 44.2718 17.7863 44.0616 54.3213 18.4087 43.6567 28.0723 18.6065 66.4213 44.0111 66.6357 44.0422 34.7056 34.0358 60.9792 18.2325 61.6857 69.8519 69.3224 36.2378 35.6776 35.6158 43.0575 42.2392 34.1659 35.7715 36.3089 65.2125 65.3228 19.104 38.5902 38.6519 38.4919 38.5475 42.118 73.441 19.0536 19.8992 34.3379 34.9226 20.1148 34.279 23.2897 31.8833 21.2891 70.9027 22.9487 23.0176 72.6281 71.4238 22.6566 72.0218 24.4211 19.4247 24.6886 36.4935 23.064 36.9034 37.3889 21.763 36.6364 73.2148 44.7559 23.264 21.8065 22.723 21.3743 20.9886 22.7487 23.0179 71.6474 52.7647 22.4909 21.8375 21.5667 52.6426 73.7591 78.663 22.3471 77.774 51.9866 53.1783 21.9469 36.8878 22.0333 52.7511 52.7311 45.4681 44.8663 53.3685 52.5794 73.9959 52.621 52.7172 53.049 23.4741 53.1004 52.3744 53.3724 52.931 76.631 75.677 53.669 54.3985 81.9467 53.1637 82.6717 53.7419 79.5544 54.1208 54.2917 52.8456 54.8077 48.6057 47.8033 48.0472 54.8599 53.699 42.0762 79.4538 53.0851 54.6961 82.4634 33.2095 51.1144 50.6793 98.1094 54.8386 50.5807 51.1034 51.4636 54.3028 58.6873 58.4403 84.4522 83.3824 61.9915 61.3637 52.3475 50.7537 64.0505 63.0353 62.4941 63.2414 61.651 62.753 62.2975 63.095795 62.5382 62.4663 62.5929 62.2349 62.8728 63.776703 63.481903 64.9228 63.391 63.729004 63.1569 63.442505 62.8485 64.3268 62.9982 63.449097 93.0671 93.5816 93.7484 57.7459 68.6274 68.7762 69.0399 115.5677 69.5987 99.9992 75.3121 75.2321 72.977 72.6924 72.1573 73.5283 107.1028 119.5313 121.9656 119.8198 119.115 138.1895 129.9018 138.5638 132.7214 137.6582 139.9026 149.6599 148.3063 148.5568 141.2884 154.5033 155.2166 163.0206 156.218 196.2837 1.9025002 
PEPMASS=887.456
CHARGE=2+
56.0522 418
56.9682 158
60.0476 435
70.0677 1097
72.0835 768
74.9363 187
81.9645 160
83.0638 471
84.0475 2193
84.0835 400
84.9631 3055
86.0993 2384
93.0489 233
98.9898 3487
101.0747 1557
102.0595 227
105.0696 470
107.9353 180
110.075 5179
111.0789 452
115.091 179
116.0779 230
117.0035 235
120.0852 506
126.059 154
127.0907 197
129.0702 180
129.1068 217
134.9688 2031
136.0888 568
136.9661 585
138.0651 242
140.9229 882
141.9969 203
144.9975 2988
150.9414 1953
152.9389 728
152.9794 221
154.1022 157
155.0878 616
156.898 147
158.0984 788
158.9338 1232
159.0252 2320
159.101 162
160.9038 207
160.9702 154
163.0119 145
164.1249 148
166.069 280
168.9535 268
170.0998 201
170.9368 800
171.0252 426
171.082 232
171.983 356
172.1136 691
174.9068 162
174.9971 239
175.1247 1678
176.1271 171
176.9011 362
178.142 452
178.8987 151
181.067 259
181.1157 1416
182.117 190
183.1193 345
184.8442 126
186.8386 187
186.929 2046
188.1106 410
192.0856 256
194.8683 1143
195.0033 1485
196.865 750
196.999 342
198.0952 460
198.8622 182
198.948 262
199.0815 319
200.1089 375
200.1482 202
201.1297 259
201.9158 216
202.9 323
203.1266 217
204.8959 8188
205.0329 277
205.902 203
206.8935 3018
208.8924 594
209.1113 2810
210.1134 379
210.886 218
210.9763 197
212.882 304
214.9226 20853
215.1195 283
215.9314 936
216.1058 2729
216.9262 809
217.0324 178
217.1059 356
218.9207 1717
220.1156 254
220.8726 350
220.9208 274
222.908 1751
223.1626 142
224.9033 609
226.0897 174
226.9055 624
228.9533 1323
230.8978 1280
231.1295 149
232.1472 541
232.9369 3018
234.8959 634
236.8947 275
236.9327 232
237.1443 729
238.1451 132
238.8834 170
242.1204 157
242.8828 1298
244.1047 163
244.8755 290
244.9246 760
246.8682 253
246.961 449
248.9102 271
249.9985 162
254.9024 549
256.8988 340
258.1177 267
260.8901 208
261.1616 187
262.1386 1145
263.1386 182
264.9306 1253
266.9277 416
269.1301 225
270.1193 201
274.9037 207
274.9589 866
280.1497 1796
280.9012 274
281.1512 343
283.1865 181
284.1849 123
284.927 453
286.1632 272
286.8028 238
286.9394 361
287.1463 1782
288.1502 216
290.172 162
296.8347 775
297.1306 278
299.1827 394
300.987 155
302.914 225
303.1873 2374
304.1881 400
306.7614 257
306.8582 150
307.0217 1742
308.0196 191
308.1834 1032
308.7666 375
309.0147 216
309.1829 218
310.7642 139
311.182 1625
312.1843 370
314.8032 533
314.8483 284
315.1408 391
316.7982 582
316.9088 143
318.7952 268
320.1494 192
322.7888 101
322.9939 181
324.8286 2336
326.829 1532
328.8267 450
329.1935 810
330.1969 163
330.8268 164
332.8158 358
334.857 2913
335.8588 154
336.1773 126
336.8569 1174
338.1577 446
338.6653 155
338.8542 310
339.1635 138
341.1937 134
342.8404 570
344.887 2510
344.9694 422
345.8937 179
346.8351 211
348.8883 179
351.1929 356
352.873 609
354.8682 216
355.2162 172
356.8683 228
357.1926 174
358.2225 253
362.902 266
365.2329 145
366.8033 133
368.7995 166
369.098 333
372.2353 456
374.2262 152
375.6488 195
376.1402 224
376.834 116
379.2218 473
380.9506 159
382.2219 256
383.2068 233
384.2148 106
386.2186 609
387.1784 181
387.224 116
389.2175 367
390.2251 115
390.978 187
391.23 154
396.9221 176
397.1886 428
398.1939 150
398.9155 138
400.2329 2628
401.2372 627
406.1518 534
406.6565 213
406.7351 160
408.7377 149
409.1961 520
410.105 168
410.1997 137
411.2056 468
412.2087 131
414.2267 148
415.2136 117
416.7693 125
416.9234 118
417.2143 515
418.2131 185
419.2252 242
421.2059 289
423.2553 106
424.7562 116
425.1659 131
426.2572 186
426.703 142
428.2258 144
432.2372 634
433.2346 222
434.1996 499
434.7345 392
435.2004 124
436.7354 471
438.7243 343
440.1893 140
440.7258 144
442.7141 138
444.7612 1272
446.7608 1322
448.7569 626
450.167 192
450.259 119
450.7481 228
451.2479 334
452.2488 221
452.745 299
454.2846 167
454.7917 2513
455.7928 154
456.7889 1746
457.7935 155
458.7852 602
460.2523 163
460.781 232
462.7803 501
464.8195 3545
465.826 301
466.8186 1238
467.8133 129
468.8127 436
470.8365 297
471.3127 446
472.3121 131
472.8021 508
474.8502 2595
475.8539 224
476.853 156
478.8473 284
480.2322 623
480.8709 153
481.2333 164
481.2928 165
482.2736 150
482.836 261
486.247 103
486.8158 136
488.2492 312
490.8262 110
491.6991 241
492.2038 152
492.2785 186
495.2883 273
496.2844 116
498.7584 758
499.2581 380
499.3041 577
500.216 142
500.3088 153
501.742 142
507.2813 143
512.237 161
520.2714 170
523.2819 575
524.271 129
526.6709 480
527.2492 181
528.6745 651
528.7984 232
529.2545 421
530.1801 124
530.2597 126
530.6654 220
530.7995 236
532.7983 136
534.2796 254
534.778 166
536.6951 129
536.7595 182
537.2581 171
537.2965 173
538.8265 502
540.832 447
542.818 158
544.6834 492
546.2798 1105
546.6804 647
547.2821 333
548.6291 110
548.6866 207
548.8583 610
550.856 293
551.3028 182
552.8501 141
554.6706 282
554.7933 228
555.7342 120
556.6595 422
556.8015 199
557.2766 168
558.2962 302
558.6545 385
558.887 409
560.6462 170
562.688 177
564.6895 783
564.8227 241
565.2945 183
566.3166 137
566.6925 1131
566.8321 125
568.6916 686
569.8018 580
570.2999 338
570.6814 337
572.6826 275
574.7193 1596
574.8607 137
575.7313 128
576.6999 123
576.7161 1715
577.1972 131
577.7303 164
578.7203 698
580.7274 278
582.6984 371
584.7527 1982
585.7586 156
586.7506 1439
586.7599 163
587.76 168
588.743 532
589.2958 108
590.7378 253
591.3391 244
591.7195 119
592.7361 246
592.7876 166
593.3124 309
594.3238 301
594.7827 1553
595.79 188
596.7812 680
598.77 208
604.7494 169
604.8114 820
605.1487 274
605.7624 216
605.8139 114
606.6523 202
607.7698 174
608.3741 604
608.7972 124
609.3721 301
610.7746 147
614.2429 135
614.7456 127
617.3031 423
617.738 185
618.3069 140
622.3107 575
623.3069 163
629.3153 212
629.8194 250
630.3111 113
630.7726 128
632.7645 124
633.2106 126
635.744 206
636.2443 130
636.3657 962
637.3744 390
638.1388 165
638.3268 2330
638.8279 1748
639.3301 714
639.8359 213
640.7969 122
648.2842 112
649.13 143
650.1635 148
654.7255 190
655.2283 146
655.4648 145
655.716 149
657.8776 144
659.1595 135
659.1673 145
659.3684 1463
659.508 172
659.8456 127
660.2526 129
660.3686 495
660.5094 133
661.3839 153
661.5493 127
661.8066 147
661.8787 160
662.7025 216
663.1851 150
663.2195 138
663.7279 132
664.4803 131
665.2642 175
665.3459 133
666.6621 149
670.5277 119
670.8473 163
672.1646 135
673.7981 127
674.4705 138
675.5025 136
676.1913 138
676.3276 194
676.5909 290
677.1585 175
677.4889 129
677.8031 140
678.5888 271
679.4104 233
679.4182 206
680.1577 153
680.4147 134
680.5736 130
682.5815 147
684.1594 150
684.2537 120
684.489 110
684.6151 288
686.6225 673
687.8623 373
688.3673 319
688.6237 413
692.5955 229
694.3464 162
694.6537 648
696.6526 903
698.6502 591
700.4873 113
700.644 228
702.6261 236
704.6849 865
706.6791 926
707.4054 667
708.41 249
708.6819 417
710.662 245
712.3622 616
712.6498 276
713.3457 300
714.7122 560
716.3641 159
716.7092 556
718.7099 238
720.6754 192
722.6825 110
723.3907 334
723.8872 231
724.385 121
724.7395 386
726.7389 257
727.2639 139
730.3939 163
730.6926 120
734.7698 204
765.3769 244
772.0362 161
773.3359 253
773.8466 190
778.4485 205
778.5659 106
778.9108 186
779.4024 179
779.8966 137
786.5797 108
787.4079 105
787.9164 117
788.4172 1126
789.4149 451
796.5403 135
798.5256 175
799.8734 142
800.3738 178
800.5133 170
804.5473 197
806.5456 350
808.5516 269
810.5411 200
812.5418 113
814.5808 232
816.5844 385
818.5771 277
820.5845 235
822.5484 154
824.6112 376
826.6176 429
828.6182 262
830.6037 156
830.9268 320
831.4287 295
831.9328 206
832.5845 128
834.6452 257
836.6424 354
840.6297 120
844.6761 113
846.6707 117
859.4498 2076
860.4602 919
861.4654 322
878.9635 137
887.4742 592
887.9762 568
888.4793 347
888.5188 126
888.9727 152
891.4814 1035
924.4416 111
926.4625 151
936.5201 120
946.5366 120
948.552 141
956.5735 138
979.4894 253
996.5187 1648
997.5171 958
998.5222 305
1050.511 167
1067.5547 1867
1067.5549 1146
1068.557 834
1068.5638 967
1069.5566 330
1121.5857 243
1138.5991 1755
1139.6011 1176
1140.5935 463
1140.6105 352
1275.6624 1244
1276.6595 969
1276.6667 714
1277.6624 395
1445.7292 169
1445.7479 163
END IONS
BEGIN IONS
TITLE=Spectrum 5 DRIFT_TIME= 23.8225 24.2645 22.9823 24.7196 24.82 23.3015 23.0236 23.6145 23.4486 23.4249 23.3497 23.1953 23.4271 23.4963 23.7781 23.4418 23.5739 23.3674 22.9933 23.6234 23.3097 24.1182 23.7564 23.7073 23.1287 24.3186 24.1145 23.8483 24.1412 23.4819 24.2136 24.306 24.4067 23.4626 24.0473 24.0687 23.8342 23.7376 23.7718 24.1597 23.6253 23.9731 23.582 24.6197 24.5088 23.6786 25.4186 23.3998 25.6928 25.0826 24.2407 23.5027 24.0309 24.2652 23.2285 25.1991 23.7667 23.4884 23.7677 23.3261 24.4642 24.3707 24.7533 27.9778 24.0424 23.7206 24.3123 23.8335 26.4132 24.7343 24.1836 26.413 24.1681 23.9318 25.1568 25.9234 26.6019 23.7593 24.2757 23.8173 23.8824 23.626 25.3171 23.9384 24.8198 25.1682 24.9675 25.3428 25.3177 26.7816 26.7309 24.8182 24.7851 24.7145 25.9636 24.4211 25.1531 24.3267 24.2301 25.3756 24.1744 25.4368 24.7356 25.1755 23.9663 23.9096 23.9716 24.9971 24.0904 24.0395 25.4122 23.9876 24.1088 23.9205 23.9076 29.8511 29.3407 29.8516 27.5937 28.7239 29.011 28.66 28.4357 29.4019 23.3308 28.91 30.1391 27.7379 28.5147 28.8174 28.7988 25.4034 24.222 25.6494 25.5184 25.8954 37.9993 23.5041 29.3387 29.2245 29.3328 35.6516 34.2351 35.1706 36.151 33.0543 34.3298 32.2544 35.3042 23.6364 23.7367 32.3033 33.8039 32.5129 33.8417 23.3961 23.7269 25.0164 34.1648 48.9402 54.0542 24.2173 40.266 25.0563 40.1393 26.2425 29.4964 68.9401 26.5561 26.3175 67.4953 26.6156 26.2233 
PEPMASS=411.7075
CHARGE=2+
55.9849 138
56.9685 509
72.0843 313
74.9357 285
81.9642 247
83.979 159
84.0849 240
84.9615 5069
88.957 146
97.9948 230
98.9904 2286
102.9797 490
109.9963 390
110.9794 330
111.9598 139
112.9072 295
112.9956 341
117.0002 163
120.0849 128
124.996 695
125.9923 145
128.9005 195
128.9731 313
129.9685 2044
130.0713 177
130.8944 806
132.8905 197
134.9687 648
136.9665 211
137.9927 341
140.9224 828
141.9698 252
143.9838 134
144.9973 1535
147.979 234
148.9055 551
153.9693 148
155.9097 176
156.0035 128
156.8952 2140
157.9056 186
158.9335 1342
159.0252 691
160.9068 615
162.9032 219
164.0079 264
166.8709 216
168.0016 708
168.8707 191
170.8682 158
170.9363 403
171.1209 148
171.9787 2419
172.9816 225
173.9234 217
174.8352 120
174.9049 2377
175.0208 2420
175.9117 231
176.0272 186
176.9021 1905
178.8983 666
183.9808 1083
186.8331 113
186.9273 1599
188.9068 249
189.9931 356
192.92 171
194.8665 2124
194.9139 188
195.0029 735
196.8649 1748
196.9987 323
197.9015 152
197.997 566
198.8617 437
200.8579 119
201.9178 612
201.9912 1883
202.8999 2699
202.9966 120
203.9108 332
204.8897 7550
205.0304 748
205.9065 314
206.8941 2914
208.8931 455
210.8905 179
210.9905 183
212.8799 648
214.874 460
214.9228 5725
215.9319 258
216.0093 1005
216.875 152
216.9242 195
218.9223 834
218.9652 413
220.9156 482
222.907 2352
223.9179 108
224.9045 727
228.9523 645
229.0055 249
230.8959 3804
231.8996 460
232.899 801
232.9382 766
233.8953 254
234.8929 394
236.9355 213
244.9248 856
246.9281 392
248.9106 1053
250.9077 134
254.8985 1059
256.8982 828
258.8963 225
262.992 220
264.9205 2679
265.93 147
266.9245 984
268.9304 157
270.9948 145
271.9303 125
272.9131 192
274.9044 148
274.9568 1173
282.9411 372
284.9415 134
289.009 357
290.9294 855
291.9357 141
292.9321 398
293.9312 112
294.9257 219
295.2021 484
297.929 255
307.0086 5278
308.021 1067
309.0138 907
314.9322 657
316.8033 160
316.9325 623
318.9351 149
324.8321 409
324.9604 870
326.826 265
326.9596 225
327.9449 129
328.6054 161
334.8587 477
336.8506 130
344.9668 221
353.0246 668
353.8803 125
354.6249 212
354.8219 193
355.0299 111
355.2256 127
355.2346 131
362.1539 165
384.8673 284
385.1535 145
386.8614 221
392.8288 106
410.6835 155
411.2735 811
411.7056 1273
412.2122 722
412.2829 340
412.7142 279
415.6806 241
END IONS
BEGIN IONS
TITLE=Spectrum 6 DRIFT_TIME= 16.2655 16.453 16.2021 16.114 16.2057 16.1575 16.1627 16.6421 16.2667 16.0273 16.0972 16.4672 16.043 16.3217 16.0919 16.1369 16.2254 16.1581 16.1293 16.1844 16.76 16.3636 16.5833 16.3281 16.0947 16.8913 16.5489 16.4977 16.3346 16.3462 16.3426 16.8909 16.5602 16.6268 16.7706 17.0648 16.562 16.6152 16.3112 16.4368 16.4979 16.8412 16.7456 19.9753 16.9315 18.4621 17.0915 18.7509 17.1607 17.0008 16.8905 16.6017 17.0404 16.6566 17.0818 16.6908 16.5155 18.0255 16.9221 17.9362 18.109 16.3529 18.1248 18.0234 18.2458 17.6599 17.4852 17.4393 18.0069 17.58 17.5208 17.3918 17.1038 18.1108 18.0028 17.3696 17.4533 17.607 18.5763 16.8622 18.0367 17.543 18.2307 17.2808 18.1577 16.9894 17.1124 18.1068 18.3002 16.6239 22.1124 17.0176 20.8967 22.4125 18.192 16.8519 21.5961 20.8736 20.8526 16.5549 19.2234 19.24 21.8065 20.0439 19.9637 20.8218 20.8132 19.7398 17.9889 20.7147 20.2948 17.8266 19.105 26.2502 25.632 20.8254 24.8067 23.3223 28.9765 19.7876 35.5357 22.8326 28.3609 35.994 22.8831 27.1002 22.8833 29.6021 23.655 23.0464 23.2244 22.9645 23.6647 22.9133 23.5882 23.2908 23.5069 30.0824 22.1034 32.1376 23.3774 38.3531 37.3353 17.2071 34.0437 33.8352 37.4452 43.1044 17.4877 39.5891 39.3217 41.4147 31.903 32.2874 32.234 32.4169 16.7781 16.8192 32.8408 34.9672 33.3445 43.9517 32.7602 32.3243 52.008 51.1216 32.6029 30.347 33.8006 32.7294 33.2786 32.7835 32.3431 33.2672 32.9753 32.7242 51.1636 31.988602 31.507797 32.3612 30.7826 33.2723 54.146 53.7174 28.5371 54.0463 17.1262 54.408 37.7561 52.8562 37.0227 36.2143 17.8535 18.0739 55.0177 53.409 28.3661 28.1865 28.3168 56.3371 17.8573 17.7313 57.8581 57.0987 57.0028 17.3348 42.5894 43.069 39.8866 43.4496 38.8305 42.7906 42.756 42.6704 43.2931 33.9268 34.1622 34.375 43.3484 42.9059 43.8333 44.1303 43.1497 42.9888 61.4708 27.4949 27.5083 43.406 44.0635 18.6022 42.7906 44.0211 43.5456 44.9566 43.8671 21.131 20.44 20.5632 44.3495 52.7039 73.6035 72.7271 28.1092 42.9977 28.7363 70.3161 70.3148 72.0931 21.9219 22.7328 22.1139 22.9019 22.861 23.0848 21.8541 36.4912 22.0001 21.8962 37.1012 36.825 76.884 73.9505 35.7039 37.2062 36.264 36.6424 42.0025 43.1988 82.2408 44.2342 44.0099 53.0594 53.0043 53.2503 53.4388 52.9305 52.3129 53.7849 52.8135 53.7217 53.9507 52.3689 54.9582 78.8269 52.7196 55.9713 54.2187 55.6117 51.289 54.6941 55.2138 47.5938 47.5957 47.9586 47.4227 83.4739 86.8466 55.0355 48.7028 47.74 49.1163 49.1884 49.2619 49.722 54.7261 50.4073 50.9368 50.3141 93.7272 91.1524 90.914 55.0352 96.1156 98.6542 64.6946 63.8935 63.6345 62.3295 62.7312 63.0887 63.2706 64.5032 58.2586 111.1082 110.2915 108.0533 124.3267 118.0946 66.6992 71.132 122.1389 129.1852 127.87491 130.5807 127.17401 156.5747 156.7365 186.6473 
PEPMASS=761.905
CHARGE=2+
56.0502 184
69.0704 169
70.0649 6014
71.0693 299
72.0808 853
84.0442 769
84.0807 930
84.9604 1274
86.096 2376
91.0544 388
98.0591 302
98.9867 1332
101.0711 200
102.0543 264
119.0495 326
120.0808 242
128.1066 257
129.0651 215
129.1028 890
130.0857 276
134.9625 728
136.0753 4658
136.9596 232
137.0785 456
138.0924 148
140.9186 253
144.9925 2169
147.1125 137
150.936 1117
152.9346 377
156.1008 379
158.9285 414
159.0186 1097
168.9471 176
169.1306 160
170.9292 358
171.0159 151
173.1298 195
174.9935 160
175.1199 321
183.1085 216
183.1484 2860
184.1509 368
184.8306 212
186.9223 825
194.8604 465
194.9965 843
196.8608 320
196.9916 264
197.1315 122
198.9377 142
199.1071 483
201.1229 1352
201.915 142
202.1262 223
202.8951 209
203.1027 181
204.8889 3952
205.0258 289
206.8856 1548
208.8842 351
210.9672 171
211.1431 1530
212.1473 206
212.8719 194
214.1541 145
214.9146 13808
215.9215 640
216.129 180
216.917 387
217.1354 146
218.911 1009
220.8612 268
222.8994 1025
224.8972 409
226.8982 335
227.1006 515
228.9427 691
230.1496 160
230.8909 1083
232.1117 273
232.9282 2329
233.1277 1045
233.9306 134
234.1298 168
234.8868 454
236.8841 174
236.9247 210
240.0986 172
242.8715 479
244.8627 570
244.9178 595
246.181 255
246.8639 157
246.9527 363
248.9025 260
249.158 136
254.8923 405
256.8881 194
260.8869 139
261.1219 1965
262.1287 306
262.8761 245
264.9225 1240
266.9167 460
268.9214 140
272.9068 116
274.9512 1267
280.8922 245
282.9309 122
284.9167 162
286.9347 210
296.8325 248
304.8958 182
305.1561 200
307.0085 545
314.7909 149
316.7841 156
322.1852 134
322.9765 124
324.2271 882
324.817 796
325.1828 223
325.2314 214
326.814 713
327.1387 214
328.8104 169
329.1878 143
332.8031 145
334.847 1837
335.8506 135
336.8425 770
338.8401 136
342.8269 255
344.8767 1259
352.8551 412
354.8519 191
356.1972 485
356.855 186
357.1927 134
362.8833 234
374.2068 1514
375.2087 321
375.6398 206
390.1645 1056
391.1692 203
402.1839 168
405.2086 126
406.1381 120
406.2108 1165
407.2101 200
411.1893 172
418.9041 129
444.7479 410
446.7399 463
448.7397 310
452.7867 174
453.7733 171
454.7734 1238
454.858 203
455.7822 110
456.2222 125
456.7698 910
458.7648 348
459.2956 620
460.2988 174
460.7653 152
462.7177 275
462.7566 162
464.8033 1733
465.8035 142
466.7955 725
468.7945 250
470.8193 207
472.8017 363
474.831 1632
475.2566 278
475.8377 150
476.7378 121
478.8241 177
480.7332 146
482.8222 156
487.2896 1458
488.2934 423
490.8006 114
492.2921 606
492.7137 165
493.2935 193
500.8553 130
503.2478 598
508.7997 197
510.7981 115
512.7438 366
513.7412 323
516.2509 219
517.2446 497
518.7538 1597
519.2544 904
519.7549 324
520.2797 139
521.76 221
522.7538 211
533.3065 246
534.2697 1016
535.2684 363
554.4326 145
556.6475 125
558.6424 108
558.8508 102
564.6697 234
564.814 185
566.67 303
568.6621 248
572.659 106
574.7022 903
575.2942 530
575.7936 358
576.2994 199
576.6942 916
578.6934 466
580.6936 217
582.6861 162
584.7276 1282
586.7288 823
587.2696 135
587.6582 280
588.1552 145
588.721 389
590.7109 163
592.4458 120
592.7144 137
594.7569 966
596.755 382
598.7391 139
602.7516 117
603.5107 163
603.8512 138
604.1843 142
604.789 591
605.1314 157
605.3741 431
606.3765 172
606.6281 153
610.7417 112
614.608 109
622.2828 238
631.3056 538
632.3101 237
632.547 209
632.8862 186
633.2258 116
633.8498 334
634.1865 275
634.5157 199
634.8526 115
644.2091 123
645.1971 179
645.5287 137
646.2713 229
646.7697 173
647.3501 483
648.3508 227
658.2043 108
662.2584 106
665.2371 150
665.7493 117
678.8201 148
680.3646 429
680.3704 155
680.8657 337
681.3631 209
686.5944 135
688.5851 132
694.6324 314
696.6247 316
698.6257 348
700.6238 198
702.6057 169
704.6639 631
706.6586 633
708.6549 595
710.6385 240
712.632 141
713.3691 159
714.6679 253
714.6883 258
716.6808 286
718.6787 161
720.6258 122
724.7103 274
726.6942 117
731.3314 355
731.8274 412
732.3309 209
732.8314 119
733.4231 424
734.4294 170
734.7298 150
742.3698 153
742.8697 240
752.3313 190
752.8427 300
753.3421 149
753.8407 122
761.3476 355
761.8757 529
762.3873 355
762.8926 218
767.3978 231
768.3953 206
791.3332 396
805.9152 110
810.4141 501
811.4161 248
816.5575 138
818.5468 118
824.5814 141
826.5864 288
828.583 401
830.5612 204
834.6079 123
838.6105 120
849.9373 118
890.393 186
896.5008 382
897.4937 292
931.4639 180
939.4561 308
969.4746 130
971.4839 120
1027.5182 231
1036.5024 3433
1037.5054 2078
1038.5074 710
1038.5184 707
1149.5958 784
1150.5939 545
1263.6708 268
END IONS
